"163056 - RawData - C:\Users\User\Documents\Marte\Analysis\23-022\23-022A Trial 2.spc"
"Wavelength nm.","Abs."
200.00,0.583
200.50, 
201.00,0.564
201.50, 
202.00,0.532
202.50, 
203.00,0.506
203.50, 
204.00,0.482
204.50, 
205.00,0.460
205.50, 
206.00,0.440
206.50, 
207.00,0.422
207.50, 
208.00,0.406
208.50, 
209.00,0.391
209.50, 
210.00,0.377
210.50, 
211.00,0.364
211.50, 
212.00,0.351
212.50, 
213.00,0.340
213.50, 
214.00,0.329
214.50, 
215.00,0.318
215.50, 
216.00,0.309
216.50, 
217.00,0.299
217.50, 
218.00,0.291
218.50, 
219.00,0.283
219.50, 
220.00,0.275
220.50, 
221.00,0.268
221.50, 
222.00,0.260
222.50, 
223.00,0.252
223.50, 
224.00,0.245
224.50, 
225.00,0.238
225.50, 
226.00,0.231
226.50, 
227.00,0.224
227.50, 
228.00,0.216
228.50, 
229.00,0.210
229.50, 
230.00,0.204
230.50, 
231.00,0.197
231.50, 
232.00,0.191
232.50, 
233.00,0.185
233.50, 
234.00,0.179
234.50, 
235.00,0.174
235.50, 
236.00,0.169
236.50, 
237.00,0.164
237.50, 
238.00,0.161
238.50, 
239.00,0.157
239.50, 
240.00,0.154
240.50, 
241.00,0.152
241.50, 
242.00,0.149
242.50, 
243.00,0.146
243.50, 
244.00,0.144
244.50, 
245.00,0.142
245.50, 
246.00,0.140
246.50, 
247.00,0.139
247.50, 
248.00,0.137
248.50, 
249.00,0.135
249.50, 
250.00,0.134
250.50, 
251.00,0.132
251.50, 
252.00,0.131
252.50, 
253.00,0.130
253.50, 
254.00,0.128
254.50, 
255.00,0.127
255.50, 
256.00,0.125
256.50, 
257.00,0.124
257.50, 
258.00,0.123
258.50, 
259.00,0.122
259.50, 
260.00,0.121
260.50, 
261.00,0.119
261.50, 
262.00,0.118
262.50, 
263.00,0.117
263.50, 
264.00,0.116
264.50, 
265.00,0.115
265.50, 
266.00,0.114
266.50, 
267.00,0.113
267.50, 
268.00,0.111
268.50, 
269.00,0.110
269.50, 
270.00,0.109
270.50, 
271.00,0.108
271.50, 
272.00,0.107
272.50, 
273.00,0.106
273.50, 
274.00,0.105
274.50, 
275.00,0.103
275.50, 
276.00,0.102
276.50, 
277.00,0.101
277.50, 
278.00,0.100
278.50, 
279.00,0.099
279.50, 
280.00,0.097
280.50, 
281.00,0.096
281.50, 
282.00,0.095
282.50, 
283.00,0.094
283.50, 
284.00,0.092
284.50, 
285.00,0.090
285.50, 
286.00,0.089
286.50, 
287.00,0.087
287.50, 
288.00,0.086
288.50, 
289.00,0.084
289.50, 
290.00,0.082
290.50, 
291.00,0.081
291.50, 
292.00,0.079
292.50, 
293.00,0.078
293.50, 
294.00,0.076
294.50, 
295.00,0.075
295.50, 
296.00,0.073
296.50, 
297.00,0.072
297.50, 
298.00,0.071
298.50, 
299.00,0.069
299.50, 
300.00,0.068
300.50, 
301.00,0.066
301.50, 
302.00,0.065
302.50, 
303.00,0.064
303.50, 
304.00,0.063
304.50, 
305.00,0.062
305.50, 
306.00,0.060
306.50, 
307.00,0.059
307.50, 
308.00,0.058
308.50, 
309.00,0.057
309.50, 
310.00,0.057
310.50, 
311.00,0.056
311.50, 
312.00,0.055
312.50, 
313.00,0.054
313.50, 
314.00,0.054
314.50, 
315.00,0.053
315.50, 
316.00,0.052
316.50, 
317.00,0.052
317.50, 
318.00,0.052
318.50, 
319.00,0.051
319.50, 
320.00,0.051
320.50, 
321.00,0.050
321.50, 
322.00,0.050
322.50, 
323.00,0.050
323.50, 
324.00,0.049
324.50, 
325.00,0.049
325.50, 
326.00,0.049
326.50, 
327.00,0.048
327.50, 
328.00,0.048
328.50, 
329.00,0.048
329.50, 
330.00,0.047
330.50, 
331.00,0.047
331.50, 
332.00,0.047
332.50, 
333.00,0.046
333.50, 
334.00,0.046
334.50, 
335.00,0.046
335.50, 
336.00,0.045
336.50, 
337.00,0.045
337.50, 
338.00,0.045
338.50, 
339.00,0.044
339.50, 
340.00,0.044
340.50, 
341.00,0.044
341.50, 
342.00,0.044
342.50, 
343.00,0.043
343.50, 
344.00,0.042
344.50, 
345.00,0.042
345.50, 
346.00,0.041
346.50, 
347.00,0.041
347.50, 
348.00,0.041
348.50, 
349.00,0.041
349.50, 
350.00,0.040
350.50, 
351.00,0.040
351.50, 
352.00,0.039
352.50, 
353.00,0.038
353.50, 
354.00,0.037
354.50, 
355.00,0.037
355.50, 
356.00,0.037
356.50, 
357.00,0.036
357.50, 
358.00,0.035
358.50, 
359.00,0.035
359.50, 
360.00,0.033
360.50, 
361.00,0.032
361.50, 
362.00,0.032
362.50, 
363.00,0.031
363.50, 
364.00,0.031
364.50, 
365.00,0.029
365.50, 
366.00,0.027
366.50, 
367.00,0.027
367.50, 
368.00,0.027
368.50, 
369.00,0.026
369.50, 
370.00,0.025
370.50, 
371.00,0.024
371.50, 
372.00,0.024
372.50, 
373.00,0.023
373.50, 
374.00,0.023
374.50, 
375.00,0.022
375.50, 
376.00,0.021
376.50, 
377.00,0.020
377.50, 
378.00,0.020
378.50, 
379.00,0.019
379.50, 
380.00,0.018
380.50, 
381.00,0.018
381.50, 
382.00,0.018
382.50, 
383.00,0.017
383.50, 
384.00,0.017
384.50, 
385.00,0.017
385.50, 
386.00,0.016
386.50, 
387.00,0.016
387.50, 
388.00,0.016
388.50, 
389.00,0.015
389.50, 
390.00,0.015
390.50, 
391.00,0.015
391.50, 
392.00,0.014
392.50, 
393.00,0.014
393.50, 
394.00,0.014
394.50, 
395.00,0.014
395.50, 
396.00,0.013
396.50, 
397.00,0.013
397.50, 
398.00,0.013
398.50, 
399.00,0.013
399.50, 
400.00,0.013
400.50, 
401.00,0.013
401.50, 
402.00,0.012
402.50, 
403.00,0.012
403.50, 
404.00,0.012
404.50, 
405.00,0.012
405.50, 
406.00,0.011
406.50, 
407.00,0.011
407.50, 
408.00,0.012
408.50, 
409.00,0.011
409.50, 
410.00,0.011
410.50, 
411.00,0.011
411.50, 
412.00,0.011
412.50, 
413.00,0.011
413.50, 
414.00,0.011
414.50, 
415.00,0.010
415.50, 
416.00,0.010
416.50, 
417.00,0.010
417.50, 
418.00,0.010
418.50, 
419.00,0.010
419.50, 
420.00,0.010
420.50, 
421.00,0.010
421.50, 
422.00,0.010
422.50, 
423.00,0.010
423.50, 
424.00,0.009
424.50, 
425.00,0.009
425.50, 
426.00,0.009
426.50, 
427.00,0.009
427.50, 
428.00,0.009
428.50, 
429.00,0.009
429.50, 
430.00,0.008
430.50, 
431.00,0.008
431.50, 
432.00,0.008
432.50, 
433.00,0.008
433.50, 
434.00,0.008
434.50, 
435.00,0.008
435.50, 
436.00,0.008
436.50, 
437.00,0.008
437.50, 
438.00,0.008
438.50, 
439.00,0.007
439.50, 
440.00,0.007
440.50, 
441.00,0.007
441.50, 
442.00,0.007
442.50, 
443.00,0.007
443.50, 
444.00,0.007
444.50, 
445.00,0.007
445.50, 
446.00,0.007
446.50, 
447.00,0.007
447.50, 
448.00,0.006
448.50, 
449.00,0.006
449.50, 
450.00,0.006
450.50, 
451.00,0.006
451.50, 
452.00,0.006
452.50, 
453.00,0.006
453.50, 
454.00,0.006
454.50, 
455.00,0.006
455.50, 
456.00,0.006
456.50, 
457.00,0.006
457.50, 
458.00,0.005
458.50, 
459.00,0.005
459.50, 
460.00,0.005
460.50, 
461.00,0.005
461.50, 
462.00,0.005
462.50, 
463.00,0.005
463.50, 
464.00,0.005
464.50, 
465.00,0.005
465.50, 
466.00,0.005
466.50, 
467.00,0.005
467.50, 
468.00,0.005
468.50, 
469.00,0.005
469.50, 
470.00,0.005
470.50, 
471.00,0.005
471.50, 
472.00,0.005
472.50, 
473.00,0.005
473.50, 
474.00,0.005
474.50, 
475.00,0.005
475.50, 
476.00,0.004
476.50, 
477.00,0.004
477.50, 
478.00,0.004
478.50, 
479.00,0.004
479.50, 
480.00,0.004
480.50, 
481.00,0.004
481.50, 
482.00,0.004
482.50, 
483.00,0.004
483.50, 
484.00,0.004
484.50, 
485.00,0.004
485.50, 
486.00,0.004
486.50, 
487.00,0.004
487.50, 
488.00,0.004
488.50, 
489.00,0.004
489.50, 
490.00,0.004
490.50, 
491.00,0.004
491.50, 
492.00,0.003
492.50, 
493.00,0.003
493.50, 
494.00,0.003
494.50, 
495.00,0.003
495.50, 
496.00,0.003
496.50, 
497.00,0.003
497.50, 
498.00,0.003
498.50, 
499.00,0.003
499.50, 
500.00,0.003
500.50, 
501.00,0.003
501.50, 
502.00,0.003
502.50, 
503.00,0.003
503.50, 
504.00,0.003
504.50, 
505.00,0.003
505.50, 
506.00,0.003
506.50, 
507.00,0.003
507.50, 
508.00,0.003
508.50, 
509.00,0.003
509.50, 
510.00,0.003
510.50, 
511.00,0.003
511.50, 
512.00,0.003
512.50, 
513.00,0.003
513.50, 
514.00,0.003
514.50, 
515.00,0.003
515.50, 
516.00,0.002
516.50, 
517.00,0.002
517.50, 
518.00,0.002
518.50, 
519.00,0.002
519.50, 
520.00,0.002
520.50, 
521.00,0.002
521.50, 
522.00,0.002
522.50, 
523.00,0.002
523.50, 
524.00,0.002
524.50, 
525.00,0.002
525.50, 
526.00,0.002
526.50, 
527.00,0.002
527.50, 
528.00,0.002
528.50, 
529.00,0.002
529.50, 
530.00,0.002
530.50, 
531.00,0.002
531.50, 
532.00,0.002
532.50, 
533.00,0.002
533.50, 
534.00,0.002
534.50, 
535.00,0.002
535.50, 
536.00,0.002
536.50, 
537.00,0.002
537.50, 
538.00,0.002
538.50, 
539.00,0.002
539.50, 
540.00,0.002
540.50, 
541.00,0.001
541.50, 
542.00,0.001
542.50, 
543.00,0.001
543.50, 
544.00,0.001
544.50, 
545.00,0.001
545.50, 
546.00,0.001
546.50, 
547.00,0.001
547.50, 
548.00,0.001
548.50, 
549.00,0.001
549.50, 
550.00,0.001
550.50, 
551.00,0.001
551.50, 
552.00,0.001
552.50, 
553.00,0.001
553.50, 
554.00,0.001
554.50, 
555.00,0.001
555.50, 
556.00,0.001
556.50, 
557.00,0.001
557.50, 
558.00,0.001
558.50, 
559.00,0.001
559.50, 
560.00,0.001
560.50, 
561.00,0.001
561.50, 
562.00,0.001
562.50, 
563.00,0.001
563.50, 
564.00,0.001
564.50, 
565.00,0.001
565.50, 
566.00,0.001
566.50, 
567.00,0.001
567.50, 
568.00,0.001
568.50, 
569.00,0.001
569.50, 
570.00,0.001
570.50, 
571.00,0.001
571.50, 
572.00,0.001
572.50, 
573.00,0.001
573.50, 
574.00,0.001
574.50, 
575.00,0.001
575.50, 
576.00,0.001
576.50, 
577.00,0.001
577.50, 
578.00,0.001
578.50, 
579.00,0.001
579.50, 
580.00,0.001
580.50, 
581.00,0.001
581.50, 
582.00,0.001
582.50, 
583.00,0.001
583.50, 
584.00,0.001
584.50, 
585.00,0.001
585.50, 
586.00,0.001
586.50, 
587.00,0.001
587.50, 
588.00,0.001
588.50, 
589.00,0.001
589.50, 
590.00,0.001
590.50, 
591.00,0.001
591.50, 
592.00,0.001
592.50, 
593.00,0.001
593.50, 
594.00,0.001
594.50, 
595.00,0.001
595.50, 
596.00,0.001
596.50, 
597.00,0.001
597.50, 
598.00,0.001
598.50, 
599.00,0.001
599.50, 
600.00,0.000
600.50, 
601.00,0.000
601.50, 
602.00,0.000
602.50, 
603.00,0.000
603.50, 
604.00,0.000
604.50, 
605.00,0.000
605.50, 
606.00,0.000
606.50, 
607.00,0.000
607.50, 
608.00,0.000
608.50, 
609.00,0.000
609.50, 
610.00,0.000
610.50, 
611.00,0.000
611.50, 
612.00,0.000
612.50, 
613.00,0.000
613.50, 
614.00,0.000
614.50, 
615.00,0.000
615.50, 
616.00,0.000
616.50, 
617.00,0.000
617.50, 
618.00,0.000
618.50, 
619.00,0.000
619.50, 
620.00,0.000
620.50, 
621.00,0.000
621.50, 
622.00,0.000
622.50, 
623.00,0.000
623.50, 
624.00,0.000
624.50, 
625.00,0.000
625.50, 
626.00,0.000
626.50, 
627.00,0.000
627.50, 
628.00,0.000
628.50, 
629.00,0.000
629.50, 
630.00,-0.000
630.50, 
631.00,-0.000
631.50, 
632.00,0.000
632.50, 
633.00,0.000
633.50, 
634.00,0.000
634.50, 
635.00,0.000
635.50, 
636.00,0.000
636.50, 
637.00,0.000
637.50, 
638.00,0.000
638.50, 
639.00,0.000
639.50, 
640.00,0.000
640.50, 
641.00,0.000
641.50, 
642.00,0.000
642.50, 
643.00,0.000
643.50, 
644.00,0.000
644.50, 
645.00,0.000
645.50, 
646.00,0.000
646.50, 
647.00,0.000
647.50, 
648.00,0.000
648.50, 
649.00,0.000
649.50, 
650.00,0.000
650.50, 
651.00,0.000
651.50, 
652.00,0.000
652.50, 
653.00,0.000
653.50, 
654.00,0.000
654.50, 
655.00,0.000
655.50, 
656.00,0.000
656.50, 
657.00,0.000
657.50, 
658.00,0.000
658.50, 
659.00,0.000
659.50, 
660.00,0.000
660.50, 
661.00,-0.000
661.50, 
662.00,-0.000
662.50, 
663.00,-0.000
663.50, 
664.00,0.000
664.50, 
665.00,0.000
665.50, 
666.00,0.000
666.50, 
667.00,0.000
667.50, 
668.00,-0.000
668.50, 
669.00,-0.000
669.50, 
670.00,0.000
670.50, 
671.00,0.000
671.50, 
672.00,-0.000
672.50, 
673.00,-0.000
673.50, 
674.00,0.000
674.50, 
675.00,-0.000
675.50, 
676.00,-0.000
676.50, 
677.00,0.000
677.50, 
678.00,0.000
678.50, 
679.00,0.000
679.50, 
680.00,0.000
680.50, 
681.00,0.000
681.50, 
682.00,0.000
682.50, 
683.00,0.000
683.50, 
684.00,0.000
684.50, 
685.00,0.000
685.50, 
686.00,0.000
686.50, 
687.00,0.000
687.50, 
688.00,-0.000
688.50, 
689.00,-0.000
689.50, 
690.00,-0.000
690.50, 
691.00,-0.000
691.50, 
692.00,-0.000
692.50, 
693.00,-0.000
693.50, 
694.00,-0.000
694.50, 
695.00,-0.000
695.50, 
696.00,-0.000
696.50, 
697.00,-0.000
697.50, 
698.00,0.000
698.50, 
699.00,0.000
699.50, 
700.00,-0.000
700.50, 
701.00,-0.000
701.50, 
702.00,-0.000
702.50, 
703.00,0.000
703.50, 
704.00,0.000
704.50, 
705.00,-0.000
705.50, 
706.00,-0.000
706.50, 
707.00,0.000
707.50, 
708.00,0.000
708.50, 
709.00,0.000
709.50, 
710.00,0.000
710.50, 
711.00,0.000
711.50, 
712.00,0.000
712.50, 
713.00,0.000
713.50, 
714.00,0.000
714.50, 
715.00,0.000
715.50, 
716.00,0.000
716.50, 
717.00,0.000
717.50, 
718.00,0.000
718.50, 
719.00,0.000
719.50, 
720.00,0.000
720.50, 
721.00,-0.000
721.50, 
722.00,-0.000
722.50, 
723.00,0.000
723.50, 
724.00,-0.000
724.50, 
725.00,-0.000
725.50, 
726.00,-0.000
726.50, 
727.00,-0.000
727.50, 
728.00,-0.000
728.50, 
729.00,-0.000
729.50, 
730.00,-0.000
730.50, 
731.00,-0.000
731.50, 
732.00,-0.000
732.50, 
733.00,-0.000
733.50, 
734.00,-0.000
734.50, 
735.00,-0.000
735.50, 
736.00,-0.000
736.50, 
737.00,-0.000
737.50, 
738.00,-0.000
738.50, 
739.00,-0.000
739.50, 
740.00,-0.000
740.50, 
741.00,-0.000
741.50, 
742.00,-0.000
742.50, 
743.00,-0.000
743.50, 
744.00,-0.000
744.50, 
745.00,-0.000
745.50, 
746.00,-0.000
746.50, 
747.00,-0.000
747.50, 
748.00,-0.000
748.50, 
749.00,-0.000
749.50, 
750.00,-0.000
750.50, 
751.00,-0.000
751.50, 
752.00,-0.000
752.50, 
753.00,-0.000
753.50, 
754.00,-0.000
754.50, 
755.00,-0.000
755.50, 
756.00,-0.000
756.50, 
757.00,-0.000
757.50, 
758.00,-0.000
758.50, 
759.00,-0.000
759.50, 
760.00,-0.000
760.50, 
761.00,-0.000
761.50, 
762.00,0.000
762.50, 
763.00,0.000
763.50, 
764.00,0.000
764.50, 
765.00,0.000
765.50, 
766.00,0.000
766.50, 
767.00,0.000
767.50, 
768.00,0.000
768.50, 
769.00,-0.000
769.50, 
770.00,-0.000
770.50, 
771.00,-0.000
771.50, 
772.00,-0.000
772.50, 
773.00,-0.000
773.50, 
774.00,-0.000
774.50, 
775.00,-0.000
775.50, 
776.00,0.000
776.50, 
777.00,0.000
777.50, 
778.00,0.000
778.50, 
779.00,0.000
779.50, 
780.00,-0.000
780.50, 
781.00,-0.000
781.50, 
782.00,0.000
782.50, 
783.00,-0.000
783.50, 
784.00,-0.000
784.50, 
785.00,0.000
785.50, 
786.00,0.000
786.50, 
787.00,0.000
787.50, 
788.00,0.000
788.50, 
789.00,0.000
789.50, 
790.00,0.000
790.50, 
791.00,0.000
791.50, 
792.00,0.000
792.50, 
793.00,-0.000
793.50, 
794.00,-0.000
794.50, 
795.00,0.000
795.50, 
796.00,0.000
796.50, 
797.00,0.000
797.50, 
798.00,0.000
798.50, 
799.00,0.000
799.50, 
800.00,0.000
800.50, 
801.00,0.000
801.50, 
802.00,0.000
802.50, 
803.00,0.000
803.50, 
804.00,0.000
804.50, 
805.00,0.000
805.50, 
806.00,0.000
806.50, 
807.00,0.000
807.50, 
808.00,0.000
808.50, 
809.00,0.000
809.50, 
810.00,0.000
810.50, 
811.00,0.000
811.50, 
812.00,0.000
812.50, 
813.00,0.000
813.50, 
814.00,0.000
814.50, 
815.00,0.000
815.50, 
816.00,0.000
816.50, 
817.00,0.000
817.50, 
818.00,0.000
818.50, 
819.00,0.000
819.50, 
820.00,0.000
820.50, 
821.00,0.000
821.50, 
822.00,0.000
822.50, 
823.00,0.000
823.50, 
824.00,0.000
824.50, 
825.00,0.000
825.50, 
826.00,0.000
826.50, 
827.00,0.000
827.50, 
828.00,0.000
828.50, 
829.00,0.000
829.50, 
830.00,0.000
830.50, 
831.00,-0.000
831.50, 
832.00,-0.000
832.50, 
833.00,-0.000
833.50, 
834.00,-0.000
834.50, 
835.00,-0.000
835.50, 
836.00,0.000
836.50, 
837.00,0.000
837.50, 
838.00,0.000
838.50, 
839.00,0.000
839.50, 
840.00,0.000
840.50, 
841.00,0.000
841.50, 
842.00,0.000
842.50, 
843.00,0.000
843.50, 
844.00,0.000
844.50, 
845.00,0.000
845.50, 
846.00,0.000
846.50, 
847.00,0.000
847.50, 
848.00,0.000
848.50, 
849.00,0.000
849.50, 
850.00,0.000
850.50, 
851.00,0.000
851.50, 
852.00,0.000
852.50, 
853.00,0.000
853.50, 
854.00,0.000
854.50, 
855.00,0.000
855.50, 
856.00,0.000
856.50, 
857.00,0.000
857.50, 
858.00,0.001
858.50, 
859.00,0.001
859.50, 
860.00,0.001
860.50, 
861.00,0.001
861.50, 
862.00,0.001
862.50, 
863.00,0.001
863.50, 
864.00,0.001
864.50, 
865.00,0.001
865.50, 
866.00,0.001
866.50, 
867.00,0.001
867.50, 
868.00,0.001
868.50, 
869.00,0.000
869.50, 
870.00,0.000
870.50, 
871.00,0.000
871.50, 
872.00,0.000
872.50, 
873.00,0.001
873.50, 
874.00,0.001
874.50, 
875.00,0.001
875.50, 
876.00,0.001
876.50, 
877.00,0.001
877.50, 
878.00,0.001
878.50, 
879.00,0.001
879.50, 
880.00,0.001
880.50, 
881.00,0.001
881.50, 
882.00,0.001
882.50, 
883.00,0.000
883.50, 
884.00,0.000
884.50, 
885.00,0.001
885.50, 
886.00,0.001
886.50, 
887.00,0.001
887.50, 
888.00,0.001
888.50, 
889.00,0.001
889.50, 
890.00,0.001
890.50, 
891.00,0.001
891.50, 
892.00,0.001
892.50, 
893.00,0.001
893.50, 
894.00,0.000
894.50, 
895.00,0.000
895.50, 
896.00,0.000
896.50, 
897.00,0.001
897.50, 
898.00,0.001
898.50, 
899.00,0.001
899.50, 
900.00,0.000
